staircase.thisTrialN,staircase.stepSize,staircase.intensity,fixation.started,grating.started,key_resp.started,fixation.stopped,grating.stopped,corrAns,tilt,key_resp.corr,staircase.response,key_resp.rt,participant,session,date,expName,psychopyVersion,frameRate,
0,2,10.0,17.700147599000047,18.18905784600065,18.18905784600065,18.202529228999992,18.485610080999322,right,10.0,0,0,1.228588708998359,025233,001,2023-09-07_16h47.12.634,AdaptiveStaircase_Nikita,2023.1.3,None,
1,2,12.0,19.474419751000823,19.945901241000684,19.945901241000684,19.987162995999824,20.247501657999237,right,12.0,0,0,0.4943495779989462,025233,001,2023-09-07_16h47.12.634,AdaptiveStaircase_Nikita,2023.1.3,None,
2,2,14.0,20.46463831999972,20.951949947000685,20.951949947000685,20.964799211000354,21.246209364000606,left,-14.0,0,0,0.5023479529991164,025233,001,2023-09-07_16h47.12.634,AdaptiveStaircase_Nikita,2023.1.3,None,
3,2,16.0,21.471673017000285,21.960270552999646,21.960270552999646,21.9709031959992,22.25850198400076,left,-16.0,0,0,0.412658894998458,025233,001,2023-09-07_16h47.12.634,AdaptiveStaircase_Nikita,2023.1.3,None,
4,1,18.0,22.39381440500074,22.878073092000704,22.878073092000704,22.892334960999506,23.180933186000402,left,-18.0,1,1,0.7450963030005369,025233,001,2023-09-07_16h47.12.634,AdaptiveStaircase_Nikita,2023.1.3,None,
5,1,17.0,23.64190641300047,24.13193667499945,24.13193667499945,24.1429631459996,24.42817150600058,right,17.0,1,1,0.5823750429990469,025233,001,2023-09-07_16h47.12.634,AdaptiveStaircase_Nikita,2023.1.3,None,
6,1,17.0,24.7318925769996,25.22415950499999,25.22415950499999,25.238204261000647,25.525160096000036,left,-17.0,1,1,0.4119774979990325,025233,001,2023-09-07_16h47.12.634,AdaptiveStaircase_Nikita,2023.1.3,None,
7,1,17.0,25.669841934000942,26.15537383999981,26.15537383999981,26.16965170200092,26.453834981999535,right,17.0,1,1,0.6921658060000482,025233,001,2023-09-07_16h47.12.634,AdaptiveStaircase_Nikita,2023.1.3,None,
8,1,16.0,26.86688513899935,27.360201694000352,27.360201694000352,27.386155390000567,27.65834624799936,right,16.0,1,1,0.6789177889986604,025233,001,2023-09-07_16h47.12.634,AdaptiveStaircase_Nikita,2023.1.3,None,
9,1,16.0,28.052148094000586,28.53907921499922,28.53907921499922,28.54856564399961,28.83057456899951,left,-16.0,1,1,0.39364396599921747,025233,001,2023-09-07_16h47.12.634,AdaptiveStaircase_Nikita,2023.1.3,None,
10,1,16.0,28.954917810000552,29.442346944000747,29.442346944000747,29.45745105900096,29.738437825999426,left,-16.0,1,1,0.4234175619985763,025233,001,2023-09-07_16h47.12.634,AdaptiveStaircase_Nikita,2023.1.3,None,
11,1,15.0,29.88079838200065,30.366071283000565,30.366071283000565,30.377266942999995,30.671915454000555,right,15.0,1,1,0.5473005189996911,025233,001,2023-09-07_16h47.12.634,AdaptiveStaircase_Nikita,2023.1.3,None,
12,1,15.0,30.928037736999613,31.4161008530009,31.4161008530009,31.427785353000218,31.722083852999276,right,15.0,1,1,0.47237276600026235,025233,001,2023-09-07_16h47.12.634,AdaptiveStaircase_Nikita,2023.1.3,None,
13,1,15.0,31.901910724000118,32.40435078399969,32.40435078399969,32.42319851100001,32.696647373000815,right,15.0,1,1,0.47066807999908633,025233,001,2023-09-07_16h47.12.634,AdaptiveStaircase_Nikita,2023.1.3,None,
14,1,14.0,32.88832142300089,33.37785286600047,33.37785286600047,33.388664587000676,33.67333603800034,right,14.0,1,1,0.4503449409985478,025233,001,2023-09-07_16h47.12.634,AdaptiveStaircase_Nikita,2023.1.3,None,
15,1,14.0,33.8465083810006,34.33221337100076,34.33221337100076,34.343326087000605,34.63071313900036,left,-14.0,1,1,0.41559451300054207,025233,001,2023-09-07_16h47.12.634,AdaptiveStaircase_Nikita,2023.1.3,None,
16,1,14.0,34.76970100899962,35.2600323860006,35.2600323860006,35.27269381000042,35.55971428799967,right,14.0,1,1,0.4766763469997386,025233,001,2023-09-07_16h47.12.634,AdaptiveStaircase_Nikita,2023.1.3,None,
17,1,13.0,35.75037601599979,36.243779427000845,36.243779427000845,36.25538374499956,36.54262004500015,left,-13.0,1,1,0.3635501189983188,025233,001,2023-09-07_16h47.12.634,AdaptiveStaircase_Nikita,2023.1.3,None,
18,1,13.0,36.621075152999765,37.1083673739995,37.1083673739995,37.12155974599955,37.40528247600014,left,-13.0,1,1,0.4364784299996245,025233,001,2023-09-07_16h47.12.634,AdaptiveStaircase_Nikita,2023.1.3,None,
19,1,13.0,37.56019637999998,38.050241102000655,38.050241102000655,38.06117520100088,38.3473309029996,left,-13.0,1,1,0.47129925999979605,025233,001,2023-09-07_16h47.12.634,AdaptiveStaircase_Nikita,2023.1.3,None,
20,1,12.0,38.555803336999816,39.044517641999846,39.044517641999846,39.056599396999445,39.345341972000824,right,12.0,0,0,0.2862657439982286,025233,001,2023-09-07_16h47.12.634,AdaptiveStaircase_Nikita,2023.1.3,None,
21,1,13.0,39.345341972000824,39.83871036200071,39.83871036200071,39.84973302199978,40.13139054800013,left,-13.0,1,1,0.6070061689988506,025233,001,2023-09-07_16h47.12.634,AdaptiveStaircase_Nikita,2023.1.3,None,
22,1,13.0,40.467785181999716,40.95814750200043,40.95814750200043,40.97412722499939,41.25531625599979,right,13.0,1,1,0.38230025499797193,025233,001,2023-09-07_16h47.12.634,AdaptiveStaircase_Nikita,2023.1.3,None,
23,0.5,13.0,41.35580619199936,41.85483695400035,41.85483695400035,41.87429998799962,42.15508163999948,right,13.0,1,1,0.46585286799927417,025233,001,2023-09-07_16h47.12.634,AdaptiveStaircase_Nikita,2023.1.3,None,
24,0.5,12.5,42.33465619399976,42.82200933999957,42.82200933999957,42.83257571800095,43.11399178700049,right,12.5,1,1,0.3526706419997936,025233,001,2023-09-07_16h47.12.634,AdaptiveStaircase_Nikita,2023.1.3,None,
25,0.5,12.5,43.19505335999929,43.68973551700037,43.68973551700037,43.704365166999196,43.992420538999795,left,-12.5,1,1,0.44265767199794936,025233,001,2023-09-07_16h47.12.634,AdaptiveStaircase_Nikita,2023.1.3,None,
26,0.5,12.5,44.15131976399971,44.64076238999951,44.64076238999951,44.65509003899933,44.9385220740005,right,12.5,1,1,0.3835969269985071,025233,001,2023-09-07_16h47.12.634,AdaptiveStaircase_Nikita,2023.1.3,None,
27,0.5,12.0,45.053730940000605,45.531296838000344,45.531296838000344,45.56109162800021,45.82617116599977,left,-12.0,1,1,0.29967457899874717,025233,001,2023-09-07_16h47.12.634,AdaptiveStaircase_Nikita,2023.1.3,None,
28,0.5,12.0,45.849442988999726,46.34320527000091,46.34320527000091,46.357993747000364,46.64436575400032,left,-12.0,1,1,0.37665175099937187,025233,001,2023-09-07_16h47.12.634,AdaptiveStaircase_Nikita,2023.1.3,None,
29,0.5,12.0,46.73626939099995,47.222456825000336,47.222456825000336,47.23278227800074,47.52148663799926,left,-12.0,1,1,0.34982724799920106,025233,001,2023-09-07_16h47.12.634,AdaptiveStaircase_Nikita,2023.1.3,None,
30,0.5,11.5,47.58972749900022,48.07960752700092,48.07960752700092,48.09248500300055,48.380620305000775,left,-11.5,1,1,0.3437079929990432,025233,001,2023-09-07_16h47.12.634,AdaptiveStaircase_Nikita,2023.1.3,None,
31,0.5,11.5,48.453916558000856,48.93103091800003,48.93103091800003,48.95855568799925,49.22552081499998,left,-11.5,1,1,0.3050709729996015,025233,001,2023-09-07_16h47.12.634,AdaptiveStaircase_Nikita,2023.1.3,None,
32,0.5,11.5,49.2500354620006,49.742692337000335,49.742692337000335,49.75534903600055,50.041640395000286,left,-11.5,1,1,0.31007572099952085,025233,001,2023-09-07_16h47.12.634,AdaptiveStaircase_Nikita,2023.1.3,None,
33,0.5,11.0,50.066628906000915,50.56025593999948,50.56025593999948,50.571980124999754,50.85841952100054,right,11.0,0,0,0.3296485720002238,025233,001,2023-09-07_16h47.12.634,AdaptiveStaircase_Nikita,2023.1.3,None,
34,0.5,11.5,50.90458901800048,51.38733997199961,51.38733997199961,51.39758672800053,51.68815566900048,right,11.5,1,1,0.5323287799983518,025233,001,2023-09-07_16h47.12.634,AdaptiveStaircase_Nikita,2023.1.3,None,
35,0.5,11.5,51.93384605999927,52.415937720999864,52.415937720999864,52.437434675000986,52.71384369000043,left,-11.5,1,1,0.5419551260001754,025233,001,2023-09-07_16h47.12.634,AdaptiveStaircase_Nikita,2023.1.3,None,
36,0.5,11.5,52.979145790000985,53.46911493799962,53.46911493799962,53.48101826799939,53.77170679200026,right,11.5,1,1,0.405628163000074,025233,001,2023-09-07_16h47.12.634,AdaptiveStaircase_Nikita,2023.1.3,None,
37,0.5,11.0,53.89211556200098,54.38041867799984,54.38041867799984,54.392464917000325,54.67631762000019,right,11.0,1,1,0.44343470099920523,025233,001,2023-09-07_16h47.12.634,AdaptiveStaircase_Nikita,2023.1.3,None,
38,0.5,11.0,54.84849577000023,55.331204871999944,55.331204871999944,55.3417417590008,55.63036759299939,right,11.0,1,1,0.4840478490004898,025233,001,2023-09-07_16h47.12.634,AdaptiveStaircase_Nikita,2023.1.3,None,
39,0.5,11.0,55.83271269299985,56.32640595399971,56.32640595399971,56.338503937000496,56.621916084000986,left,-11.0,1,1,0.4633348949992069,025233,001,2023-09-07_16h47.12.634,AdaptiveStaircase_Nikita,2023.1.3,None,
40,0.5,10.5,56.810725862000254,57.306513957999414,57.306513957999414,57.31616711999959,57.62072007700044,left,-10.5,1,1,0.4535778619992925,025233,001,2023-09-07_16h47.12.634,AdaptiveStaircase_Nikita,2023.1.3,None,
41,0.5,10.5,57.77479925899934,58.260901391000516,58.260901391000516,58.28685807799957,58.558086393999474,right,10.5,1,1,0.4252559699998528,025233,001,2023-09-07_16h47.12.634,AdaptiveStaircase_Nikita,2023.1.3,None,
42,0.5,10.5,58.699459567000304,59.19368653799938,59.19368653799938,59.206546419000006,59.4918193529993,left,-10.5,1,1,0.39985742200042296,025233,001,2023-09-07_16h47.12.634,AdaptiveStaircase_Nikita,2023.1.3,None,
43,0.5,10.0,59.62192458999925,60.12124129699987,60.12124129699987,60.140756022999994,60.4215956879998,left,-10.0,1,1,0.39886169799865456,025233,001,2023-09-07_16h47.12.634,AdaptiveStaircase_Nikita,2023.1.3,None,
44,0.5,10.0,60.533912255999894,61.02521638399958,61.02521638399958,61.040777244999845,61.325806266000654,right,10.0,1,1,0.5058057320002263,025233,001,2023-09-07_16h47.12.634,AdaptiveStaircase_Nikita,2023.1.3,None,
45,0.5,10.0,61.549056322999604,62.12623649099987,62.12623649099987,62.12623649099987,62.42553206699995,left,-10.0,1,1,0.39937147299860953,025233,001,2023-09-07_16h47.12.634,AdaptiveStaircase_Nikita,2023.1.3,None,
46,0.5,9.5,62.554961578000075,63.0392522559996,63.0392522559996,63.05223599400051,63.33166140499998,right,9.5,1,1,0.4176856799986126,025233,001,2023-09-07_16h47.12.634,AdaptiveStaircase_Nikita,2023.1.3,None,
47,0.5,9.5,63.47748767499979,63.96703199700096,63.96703199700096,63.97762132299977,64.2635685919995,right,9.5,1,1,0.47803771199869516,025233,001,2023-09-07_16h47.12.634,AdaptiveStaircase_Nikita,2023.1.3,None,
48,0.5,9.5,64.46622066599957,64.95509206099996,64.95509206099996,64.96546035900064,65.24680029299998,right,9.5,1,1,0.47541205500056094,025233,001,2023-09-07_16h47.12.634,AdaptiveStaircase_Nikita,2023.1.3,None,
49,0.5,9.0,65.44558018300086,65.93595519299924,65.93595519299924,65.94827376099965,66.23000643100022,right,9.0,1,1,0.5500868449998961,025233,001,2023-09-07_16h47.12.634,AdaptiveStaircase_Nikita,2023.1.3,None,
50,0.5,9.0,66.49969909399988,66.98206742500042,66.98206742500042,66.99277346000054,67.28073317900089,right,9.0,1,1,0.4338224449984409,025233,001,2023-09-07_16h47.12.634,AdaptiveStaircase_Nikita,2023.1.3,None,
51,0.5,9.0,67.42999357400004,67.92375290900054,67.92375290900054,67.93638374500006,68.23937447999924,left,-9.0,1,1,0.44135188099971856,025233,001,2023-09-07_16h47.12.634,AdaptiveStaircase_Nikita,2023.1.3,None,
52,0.5,8.5,68.3813240620002,68.87083732700012,68.87083732700012,68.88132679999944,69.17153354999937,right,8.5,1,1,0.43273364799824776,025233,001,2023-09-07_16h47.12.634,AdaptiveStaircase_Nikita,2023.1.3,None,
53,0.5,8.5,69.3219528009995,69.8084167119996,69.8084167119996,69.82256655499987,70.10865432299943,left,-8.5,1,1,0.4065100519983389,025233,001,2023-09-07_16h47.12.634,AdaptiveStaircase_Nikita,2023.1.3,None,
54,0.5,8.5,70.23252325400063,70.71500981800091,70.71500981800091,70.72641902699979,71.01294423999934,right,8.5,1,1,0.4621110719999706,025233,001,2023-09-07_16h47.12.634,AdaptiveStaircase_Nikita,2023.1.3,None,
55,0.5,8.0,71.1939926720006,71.68779836400063,71.68779836400063,71.69955708199996,71.98831332100053,right,8.0,1,1,0.4114796479989309,025233,001,2023-09-07_16h47.12.634,AdaptiveStaircase_Nikita,2023.1.3,None,
56,0.5,8.0,72.12073236499964,72.6170245079993,72.6170245079993,72.6170245079993,72.91583255099977,right,8.0,1,1,0.32571120399916254,025233,001,2023-09-07_16h47.12.634,AdaptiveStaircase_Nikita,2023.1.3,None,
57,0.5,8.0,72.96483871900091,73.4488933699995,73.4488933699995,73.45975432600062,73.75458562899985,left,-8.0,1,1,0.4466563719979604,025233,001,2023-09-07_16h47.12.634,AdaptiveStaircase_Nikita,2023.1.3,None,
58,0.5,7.5,73.9112144970004,74.42191563900087,74.42191563900087,74.42191563900087,74.716847357,right,7.5,1,1,0.5585262620006688,025233,001,2023-09-07_16h47.12.634,AdaptiveStaircase_Nikita,2023.1.3,None,
59,0.5,7.5,74.99437991500054,75.48074833300052,75.48074833300052,75.49456437799927,75.77570159400057,left,-7.5,1,1,0.38981949699882534,025233,001,2023-09-07_16h47.12.634,AdaptiveStaircase_Nikita,2023.1.3,None,
60,0.5,7.5,75.88886645999992,76.37629391600058,76.37629391600058,76.38830692400006,76.67586534399925,left,-7.5,1,1,0.5164177639999252,025233,001,2023-09-07_16h47.12.634,AdaptiveStaircase_Nikita,2023.1.3,None,
61,0.5,7.0,76.91079370899934,77.40538515799926,77.40538515799926,77.41469236299963,77.70472728499954,left,-7.0,1,1,0.4167625739992218,025233,001,2023-09-07_16h47.12.634,AdaptiveStaircase_Nikita,2023.1.3,None,
62,0.5,7.0,77.83845263100011,78.32703141400088,78.32703141400088,78.33742369299944,78.62568394700065,left,-7.0,1,1,0.37115334299960523,025233,001,2023-09-07_16h47.12.634,AdaptiveStaircase_Nikita,2023.1.3,None,
63,0.5,7.0,78.71578485600003,79.20916789500006,79.20916789500006,79.22135230999993,79.50754666400098,right,7.0,1,1,0.47595440799887,025233,001,2023-09-07_16h47.12.634,AdaptiveStaircase_Nikita,2023.1.3,None,
64,0.5,6.5,79.70908725899972,80.19121153199922,80.19121153199922,80.21182439999939,80.49074896300044,left,-6.5,1,1,0.4125690279979608,025233,001,2023-09-07_16h47.12.634,AdaptiveStaircase_Nikita,2023.1.3,None,
65,0.5,6.5,80.63802020900039,81.12258997400022,81.12258997400022,81.13819148400034,81.42532194299929,left,-6.5,1,1,0.37551788100063277,025233,001,2023-09-07_16h47.12.634,AdaptiveStaircase_Nikita,2023.1.3,None,
66,0.5,6.5,81.51600898099969,81.99857159800013,81.99857159800013,82.01001195900062,82.29625229900012,right,6.5,1,1,0.5506612109984417,025233,001,2023-09-07_16h47.12.634,AdaptiveStaircase_Nikita,2023.1.3,None,
67,0.5,6.0,82.57653515099992,83.06470298800014,83.06470298800014,83.07526041299934,83.3633764770002,left,-6.0,1,1,0.35464655100076925,025233,001,2023-09-07_16h47.12.634,AdaptiveStaircase_Nikita,2023.1.3,None,
68,0.5,6.0,83.43407741299961,83.92087396600073,83.92087396600073,83.9318125030004,84.22105121599998,left,-6.0,1,1,0.372123853998346,025233,001,2023-09-07_16h47.12.634,AdaptiveStaircase_Nikita,2023.1.3,None,
69,0.5,6.0,84.3084702110009,84.79723528000068,84.79723528000068,84.80889813499925,85.09645058999922,left,-6.0,1,1,0.371867112999098,025233,001,2023-09-07_16h47.12.634,AdaptiveStaircase_Nikita,2023.1.3,None,
70,0.5,5.5,85.18729937699936,85.67695327600086,85.67695327600086,85.70319326000026,85.97968764899997,right,5.5,1,1,0.4842727380000724,025233,001,2023-09-07_16h47.12.634,AdaptiveStaircase_Nikita,2023.1.3,None,
71,0.5,5.5,86.18230012599997,86.67146074300035,86.67146074300035,86.68236090299979,86.97136933299953,left,-5.5,1,1,0.41826534400024684,025233,001,2023-09-07_16h47.12.634,AdaptiveStaircase_Nikita,2023.1.3,None,
72,0.5,5.5,87.10420537400023,87.59170519500003,87.59170519500003,87.60697944999993,87.89370505999977,left,-5.5,1,1,0.3981287189981231,025233,001,2023-09-07_16h47.12.634,AdaptiveStaircase_Nikita,2023.1.3,None,
73,0.5,5.0,88.00558847499997,88.49295676300062,88.49295676300062,88.50654639300046,88.78780818099949,left,-5.0,1,1,0.35979076999865356,025233,001,2023-09-07_16h47.12.634,AdaptiveStaircase_Nikita,2023.1.3,None,
74,0.5,5.0,88.86621242000001,89.35531484000057,89.35531484000057,89.3649408250003,89.65452582599937,right,5.0,1,1,0.40724167000007583,025233,001,2023-09-07_16h47.12.634,AdaptiveStaircase_Nikita,2023.1.3,None,
75,0.5,5.0,89.78351614299936,90.2657179529997,90.2657179529997,90.29000890399948,90.57128817299963,right,5.0,1,1,0.370905675999893,025233,001,2023-09-07_16h47.12.634,AdaptiveStaircase_Nikita,2023.1.3,None,
76,0.5,4.5,90.6496734049997,91.1380931420008,91.1380931420008,91.14845822899952,91.43778257200029,left,-4.5,1,1,0.4657242329994915,025233,001,2023-09-07_16h47.12.634,AdaptiveStaircase_Nikita,2023.1.3,None,
77,0.5,4.5,91.61711273199944,92.10486302999925,92.10486302999925,92.1151227499995,92.40481056200042,left,-4.5,1,1,0.3976185639985488,025233,001,2023-09-07_16h47.12.634,AdaptiveStaircase_Nikita,2023.1.3,None,
78,0.5,4.5,92.5157710679996,93.00445773700085,93.00445773700085,93.01465411599929,93.30446345199925,right,4.5,1,1,0.4023646229998121,025233,001,2023-09-07_16h47.12.634,AdaptiveStaircase_Nikita,2023.1.3,None,
79,0.5,4.0,93.42763065300096,93.92104580399973,93.92104580399973,93.93170059899967,94.22111642600066,left,-4.0,0,0,0.389010987999427,025233,001,2023-09-07_16h47.12.634,AdaptiveStaircase_Nikita,2023.1.3,None,
80,0.5,4.5,94.33462580800006,94.82522845499989,94.82522845499989,94.83860920000006,95.12112204500045,left,-4.5,1,1,0.7123817369993048,025233,001,2023-09-07_16h47.12.634,AdaptiveStaircase_Nikita,2023.1.3,None,
81,0.5,4.5,95.57040702000086,96.05349772699992,96.05349772699992,96.07242908999979,96.35664796799938,left,-4.5,1,1,0.3751758139987942,025233,001,2023-09-07_16h47.12.634,AdaptiveStaircase_Nikita,2023.1.3,None,
82,0.5,4.5,96.44440001399926,96.93346250899958,96.93346250899958,96.94610022000052,97.2375263899994,left,-4.5,1,1,0.3686584400002175,025233,001,2023-09-07_16h47.12.634,AdaptiveStaircase_Nikita,2023.1.3,None,
83,0.5,4.0,97.31590943300034,97.81172463999974,97.81172463999974,97.81172463999974,98.11296254800072,right,4.0,1,1,0.47646538200024224,025233,001,2023-09-07_16h47.12.634,AdaptiveStaircase_Nikita,2023.1.3,None,
84,0.5,4.0,98.30449262399998,98.79357467800037,98.79357467800037,98.82003439999971,99.09052413400059,right,4.0,1,1,0.5363041769996926,025233,001,2023-09-07_16h47.12.634,AdaptiveStaircase_Nikita,2023.1.3,None,
85,0.5,4.0,99.34529010900042,99.83206519399937,99.83206519399937,99.84306275299969,100.12835307100067,right,4.0,1,1,0.5082003209990944,025233,001,2023-09-07_16h47.12.634,AdaptiveStaircase_Nikita,2023.1.3,None,
86,0.5,3.5,100.35355256799994,100.84474453700022,100.84474453700022,100.85739571399972,101.14656304799973,left,-3.5,1,1,0.5406169299985777,025233,001,2023-09-07_16h47.12.634,AdaptiveStaircase_Nikita,2023.1.3,None,
87,0.5,3.5,101.40559311200013,101.89812268900096,101.89812268900096,101.89812268900096,102.19634946000042,left,-3.5,1,1,0.3834769539989793,025233,001,2023-09-07_16h47.12.634,AdaptiveStaircase_Nikita,2023.1.3,None,
88,0.5,3.5,102.298616434,102.78782965000028,102.78782965000028,102.79835491700032,103.08749249900029,right,3.5,0,0,0.43431889499879617,025233,001,2023-09-07_16h47.12.634,AdaptiveStaircase_Nikita,2023.1.3,None,
89,0.5,4.0,103.253726672001,103.72715112600054,103.72715112600054,103.75456168200071,104.0290179980002,right,4.0,1,1,0.5422587299981387,025233,001,2023-09-07_16h47.12.634,AdaptiveStaircase_Nikita,2023.1.3,None,
90,0.5,4.0,104.28455782499987,104.77622153599987,104.77622153599987,104.7888925490006,105.07507876800082,right,4.0,1,1,0.48798954199992295,025233,001,2023-09-07_16h47.12.634,AdaptiveStaircase_Nikita,2023.1.3,None,
91,0.5,4.0,105.28987153699927,105.78165915600039,105.78165915600039,105.79235218599933,106.08734028400067,right,4.0,1,1,0.5707578389992705,025233,001,2023-09-07_16h47.12.634,AdaptiveStaircase_Nikita,2023.1.3,None,
92,0.5,3.5,106.36598187600066,106.849390116,106.849390116,106.86073726799987,107.14554264899925,left,-3.5,1,1,0.5459225609993155,025233,001,2023-09-07_16h47.12.634,AdaptiveStaircase_Nikita,2023.1.3,None,
93,0.5,3.5,107.41047416800029,107.90517677900061,107.90517677900061,107.90517677900061,108.2042092669999,right,3.5,1,1,0.3846732290003274,025233,001,2023-09-07_16h47.12.634,AdaptiveStaircase_Nikita,2023.1.3,None,
94,0.5,3.5,108.30562240799918,108.80497618300069,108.80497618300069,108.80497618300069,109.12333259200022,left,-3.5,1,1,0.5256494989989733,025233,001,2023-09-07_16h47.12.634,AdaptiveStaircase_Nikita,2023.1.3,None,
95,0.5,3.0,109.35179999399952,109.83827981399918,109.83827981399918,109.8473133080006,110.13769017900086,right,3.0,1,1,0.369727948000218,025233,001,2023-09-07_16h47.12.634,AdaptiveStaircase_Nikita,2023.1.3,None,
96,0.5,3.0,110.22699228099918,110.71750628399968,110.71750628399968,110.72865199800071,111.01322842599984,left,-3.0,1,1,0.5757853369996155,025233,001,2023-09-07_16h47.12.634,AdaptiveStaircase_Nikita,2023.1.3,None,
97,0.5,3.0,111.31552772199939,111.80530690600062,111.80530690600062,111.81567891799932,112.10419987999921,left,-3.0,0,0,0.33875865999834787,025233,001,2023-09-07_16h47.12.634,AdaptiveStaircase_Nikita,2023.1.3,None,
98,0.5,3.5,112.1594700429996,112.6486893729998,112.6486893729998,112.65926337100063,112.95429169400086,left,-3.5,1,1,0.6116122549992724,025233,001,2023-09-07_16h47.12.634,AdaptiveStaircase_Nikita,2023.1.3,None,
99,0.5,3.5,113.27728544999991,113.77109477900012,113.77109477900012,113.78201491899927,114.07077452900012,right,3.5,1,1,0.5647332780008583,025233,001,2023-09-07_16h47.12.634,AdaptiveStaircase_Nikita,2023.1.3,None,
100,0.5,3.5,114.34931006400075,114.84280490899982,114.84280490899982,114.85489157300071,115.14193049400092,right,3.5,1,1,0.4090550519995304,025233,001,2023-09-07_16h47.12.634,AdaptiveStaircase_Nikita,2023.1.3,None,
101,0.5,3.0,115.2655361649995,115.76997912099978,115.76997912099978,115.78795215600076,116.06310553100047,left,-3.0,1,1,0.6337240920001932,025233,001,2023-09-07_16h47.12.634,AdaptiveStaircase_Nikita,2023.1.3,None,
102,0.5,3.0,116.43805222400078,116.92098583299958,116.92098583299958,116.93042709399924,117.22999120299937,right,3.0,1,1,0.38237226299861504,025233,001,2023-09-07_16h47.12.634,AdaptiveStaircase_Nikita,2023.1.3,None,
103,0.5,3.0,117.3216711240002,117.80863384700024,117.80863384700024,117.82114442800048,118.10852569800045,right,3.0,1,1,0.35248326399960206,025233,001,2023-09-07_16h47.12.634,AdaptiveStaircase_Nikita,2023.1.3,None,
104,0.5,2.5,118.17642316099955,118.66326605799986,118.66326605799986,118.6765846569997,118.95802141199965,left,-2.5,1,1,0.5424562450007215,025233,001,2023-09-07_16h47.12.634,AdaptiveStaircase_Nikita,2023.1.3,None,
105,0.5,2.5,119.22128881000026,119.7093841370006,119.7093841370006,119.71996399300042,120.00814906900086,right,2.5,1,1,0.5347658859991498,025233,001,2023-09-07_16h47.12.634,AdaptiveStaircase_Nikita,2023.1.3,None,
106,0.5,2.5,120.27071469600014,120.75515383399943,120.75515383399943,120.76472374200057,121.04709502100013,left,-2.5,1,1,0.49346157199943264,025233,001,2023-09-07_16h47.12.634,AdaptiveStaircase_Nikita,2023.1.3,None,
107,0.5,2.0,121.27130570200097,121.75942401099928,121.75942401099928,121.77389211400077,122.05741366199982,right,2.0,1,1,0.5277108299997053,025233,001,2023-09-07_16h47.12.634,AdaptiveStaircase_Nikita,2023.1.3,None,
108,0.5,2.0,122.3001342890002,122.78836797300028,122.78836797300028,122.79751131199919,123.08802094199928,right,2.0,1,1,0.6048319869987608,025233,001,2023-09-07_16h47.12.634,AdaptiveStaircase_Nikita,2023.1.3,None,
109,0.5,2.0,123.40906317699955,123.89872121600092,123.89872121600092,123.90952005200052,124.19620972600023,left,-2.0,1,1,0.47020755399898917,025233,001,2023-09-07_16h47.12.634,AdaptiveStaircase_Nikita,2023.1.3,None,
110,0.5,1.5,124.38279376600076,124.86791428300057,124.86791428300057,124.88082811599998,125.16279961600048,left,-1.5,1,1,0.6176013879994571,025233,001,2023-09-07_16h47.12.634,AdaptiveStaircase_Nikita,2023.1.3,None,
111,0.5,1.5,125.5072977309992,126.0003740939992,126.0003740939992,126.01165719900018,126.30376456500017,right,1.5,1,1,0.5310107119985332,025233,001,2023-09-07_16h47.12.634,AdaptiveStaircase_Nikita,2023.1.3,None,
112,0.5,1.5,126.54846048999934,127.03733223699965,127.03733223699965,127.04769292700075,127.33745528899999,left,-1.5,1,1,0.6811966669993126,025233,001,2023-09-07_16h47.12.634,AdaptiveStaircase_Nikita,2023.1.3,None,
113,0.5,1.0,127.73933853100061,128.23090598499948,128.23090598499948,128.24382228499962,128.52579501999935,right,1.0,1,1,0.5213282360000449,025233,001,2023-09-07_16h47.12.634,AdaptiveStaircase_Nikita,2023.1.3,None,
114,0.5,1.0,128.76695302100052,129.25933606299986,129.25933606299986,129.27206132799984,129.55921564100026,left,-1.0,0,0,0.6658156440007588,025233,001,2023-09-07_16h47.12.634,AdaptiveStaircase_Nikita,2023.1.3,None,
115,0.5,1.5,129.9485654529999,130.43095621499924,130.43095621499924,130.44254513600026,130.72798493499977,right,1.5,1,1,0.5418520949988306,025233,001,2023-09-07_16h47.12.634,AdaptiveStaircase_Nikita,2023.1.3,None,
116,0.5,1.5,130.99290251999992,131.48854141999982,131.48854141999982,131.48854141999982,131.78700643400043,left,-1.5,1,1,0.546652749999339,025233,001,2023-09-07_16h47.12.634,AdaptiveStaircase_Nikita,2023.1.3,None,
117,0.5,1.5,132.0552806350006,132.54790521200084,132.54790521200084,132.5597163429993,132.84536246199968,left,-1.5,1,1,0.4372481880000123,025233,001,2023-09-07_16h47.12.634,AdaptiveStaircase_Nikita,2023.1.3,None,
118,0.5,1.0,133.00062867899942,133.49399805400026,133.49399805400026,133.50740599900018,133.79595225699995,left,-1.0,1,1,0.4610427659990819,025233,001,2023-09-07_16h47.12.634,AdaptiveStaircase_Nikita,2023.1.3,None,
119,0.5,1.0,133.97749172799922,134.4723751599995,134.4723751599995,134.48250872400058,134.77066298799946,left,-1.0,1,1,0.6898424860009982,025233,001,2023-09-07_16h47.12.634,AdaptiveStaircase_Nikita,2023.1.3,None,
120,0.5,1.0,135.17871365300016,135.66895063099946,135.66895063099946,135.6823543949995,135.9718749929998,right,1.0,1,1,0.6211319009980798,025233,001,2023-09-07_16h47.12.634,AdaptiveStaircase_Nikita,2023.1.3,None,
121,0.5,1.0,136.30801791699923,136.79855047400088,136.79855047400088,136.80957442600084,137.10365162800008,right,1.0,1,1,0.5066246659989702,025233,001,2023-09-07_16h47.12.634,AdaptiveStaircase_Nikita,2023.1.3,None,
122,0.5,1.0,137.32111283599988,137.81265748999976,137.81265748999976,137.82443799300017,138.1136226769995,right,1.0,1,1,0.44274985599804495,025233,001,2023-09-07_16h47.12.634,AdaptiveStaircase_Nikita,2023.1.3,None,
123,0.5,1.0,138.27149999299945,138.7626399590008,138.7626399590008,138.77653039399956,139.0636731100003,left,-1.0,0,0,0.6083116379995772,025233,001,2023-09-07_16h47.12.634,AdaptiveStaircase_Nikita,2023.1.3,None,
124,0.5,1.5,139.39090693899925,139.88019479499962,139.88019479499962,139.89145531400027,140.17915921500025,right,1.5,1,1,0.5836711719985033,025233,001,2023-09-07_16h47.12.634,AdaptiveStaircase_Nikita,2023.1.3,None,
125,0.5,1.5,140.48256469499938,140.97522824000043,140.97522824000043,140.98745052100094,141.27801484299926,right,1.5,1,1,0.6014881110004353,025233,001,2023-09-07_16h47.12.634,AdaptiveStaircase_Nikita,2023.1.3,None,
126,0.5,1.5,141.59849344299982,142.08677903200078,142.08677903200078,142.09726943699934,142.38711160000094,left,-1.5,1,1,0.5587348409990227,025233,001,2023-09-07_16h47.12.634,AdaptiveStaircase_Nikita,2023.1.3,None,
127,0.5,1.0,142.66157995100002,143.15755723499933,143.15755723499933,143.17063050999968,143.4573752289998,left,-1.0,1,1,0.8017630339982134,025233,001,2023-09-07_16h47.12.634,AdaptiveStaircase_Nikita,2023.1.3,None,
128,0.5,1.0,143.97640878200036,144.46409990900065,144.46409990900065,144.47514444599983,144.7630218180002,right,1.0,1,1,0.47165572499943664,025233,001,2023-09-07_16h47.12.634,AdaptiveStaircase_Nikita,2023.1.3,None,
129,0.5,1.0,144.94980925299933,145.44291122899995,145.44291122899995,145.45693107700026,145.74534043700078,left,-1.0,0,0,0.5257203659984953,025233,001,2023-09-07_16h47.12.634,AdaptiveStaircase_Nikita,2023.1.3,None,
130,0.5,1.5,145.98225823199937,146.47029545499936,146.47029545499936,146.47979511000085,146.7704114930002,right,1.5,1,1,0.5362508190009976,025233,001,2023-09-07_16h47.12.634,AdaptiveStaircase_Nikita,2023.1.3,None,
131,0.5,1.5,147.02156875400033,147.5102569770006,147.5102569770006,147.5357379369998,147.81174971200016,left,-1.5,1,1,0.5883496309998009,025233,001,2023-09-07_16h47.12.634,AdaptiveStaircase_Nikita,2023.1.3,None,
132,0.5,1.5,148.11689019000005,148.61595799600036,148.61595799600036,148.61595799600036,148.92025150299924,left,-1.5,0,0,0.452844264000305,025233,001,2023-09-07_16h47.12.634,AdaptiveStaircase_Nikita,2023.1.3,None,
133,0.5,2.0,149.0836013040007,149.5708692019998,149.5708692019998,149.5812033330003,149.86958888200024,left,-2.0,0,0,0.5238458080002601,025233,001,2023-09-07_16h47.12.634,AdaptiveStaircase_Nikita,2023.1.3,None,
134,0.5,2.5,150.10996946500018,150.59707476999938,150.59707476999938,150.60811909800032,150.89479167799982,left,-2.5,0,0,0.4547890309986542,025233,001,2023-09-07_16h47.12.634,AdaptiveStaircase_Nikita,2023.1.3,None,
135,0.5,3.0,151.06343816200024,151.5550760850001,151.5550760850001,151.56433983600073,151.85370571800013,left,-3.0,0,0,0.3577776359998097,025233,001,2023-09-07_16h47.12.634,AdaptiveStaircase_Nikita,2023.1.3,None,
136,0.5,3.5,151.93153208900003,152.4208332449998,152.4208332449998,152.43114096300087,152.72027288900063,left,-3.5,0,0,0.4845814549989882,025233,001,2023-09-07_16h47.12.634,AdaptiveStaircase_Nikita,2023.1.3,None,
137,0.5,4.0,152.9208780909994,153.4092043670007,153.4092043670007,153.4356018670005,153.70922298699952,left,-4.0,1,1,0.4046100249997835,025233,001,2023-09-07_16h47.12.634,AdaptiveStaircase_Nikita,2023.1.3,None,
138,0.5,4.0,153.83161909299997,154.3146415680003,154.3146415680003,154.32519406100073,154.61267226000018,right,4.0,0,0,0.2956931540011283,025233,001,2023-09-07_16h47.12.634,AdaptiveStaircase_Nikita,2023.1.3,None,
139,0.5,4.5,154.62708893300078,155.12189339299948,155.12189339299948,155.1310553580006,155.4240822190004,right,4.5,1,1,0.6361316369984706,025233,001,2023-09-07_16h47.12.634,AdaptiveStaircase_Nikita,2023.1.3,None,
140,0.5,4.5,155.78191284400054,156.27539178400002,156.27539178400002,156.28724884300027,156.57613193200086,right,4.5,1,1,0.5303088519976882,025233,001,2023-09-07_16h47.12.634,AdaptiveStaircase_Nikita,2023.1.3,None,
141,0.5,4.5,156.82556607900005,157.3201242310006,157.3201242310006,157.33034030199997,157.6203915139995,left,-4.5,1,1,0.615962510000827,025233,001,2023-09-07_16h47.12.634,AdaptiveStaircase_Nikita,2023.1.3,None,
142,0.5,4.0,157.95299999000054,158.44046932799938,158.44046932799938,158.4541105850003,158.74128822400053,right,4.0,1,1,0.4556485419980163,025233,001,2023-09-07_16h47.12.634,AdaptiveStaircase_Nikita,2023.1.3,None,
143,0.5,4.0,158.91745798400007,159.40307070000017,159.40307070000017,159.41504788100065,159.70336378700085,right,4.0,1,1,0.46510202499848674,025233,001,2023-09-07_16h47.12.634,AdaptiveStaircase_Nikita,2023.1.3,None,
144,0.5,4.0,159.88227147399994,160.3722143619998,160.3722143619998,160.38704462200076,160.67043108899998,right,4.0,1,1,0.45674189900091733,025233,001,2023-09-07_16h47.12.634,AdaptiveStaircase_Nikita,2023.1.3,None,
145,0.5,3.5,160.84399773400037,161.3360666440003,161.3360666440003,161.34929332200045,161.62753676400098,right,3.5,1,1,0.4987019380005222,025233,001,2023-09-07_16h47.12.634,AdaptiveStaircase_Nikita,2023.1.3,None,
146,0.5,3.5,161.84865362600067,162.34293010200054,162.34293010200054,162.35303299500083,162.6408405380007,left,-3.5,1,1,0.5134888810007396,025233,001,2023-09-07_16h47.12.634,AdaptiveStaircase_Nikita,2023.1.3,None,
147,0.5,3.5,162.87687660600022,163.36576775200047,163.36576775200047,163.3766456400008,163.66208858699974,right,3.5,1,1,0.5445466729997861,025233,001,2023-09-07_16h47.12.634,AdaptiveStaircase_Nikita,2023.1.3,None,
148,0.5,3.0,163.93383684500077,164.42719118099922,164.42719118099922,164.44121569299932,164.72765271199933,left,-3.0,1,1,0.4142591899999388,025233,001,2023-09-07_16h47.12.634,AdaptiveStaircase_Nikita,2023.1.3,None,
149,0.5,3.0,164.85743100299987,165.34428592199947,165.34428592199947,165.35850100900097,165.6426536809995,left,-3.0,1,1,0.5762509569995018,025233,001,2023-09-07_16h47.12.634,AdaptiveStaircase_Nikita,2023.1.3,None,
150,0.5,3.0,165.9338696779996,166.41997214399998,166.41997214399998,166.43413239000074,166.7123979049993,left,-3.0,0,0,0.5326982209990092,025233,001,2023-09-07_16h47.12.634,AdaptiveStaircase_Nikita,2023.1.3,None,
151,0.5,3.5,166.96978504099934,167.46239617500032,167.46239617500032,167.46239617500032,167.7577337420007,right,3.5,1,1,0.6068766869993851,025233,001,2023-09-07_16h47.12.634,AdaptiveStaircase_Nikita,2023.1.3,None,
152,0.5,3.5,168.0819948469998,168.5715070009992,168.5715070009992,168.58128621700052,168.870093603,left,-3.5,1,1,0.4840839769985905,025233,001,2023-09-07_16h47.12.634,AdaptiveStaircase_Nikita,2023.1.3,None,
153,0.5,3.5,169.07644520900067,169.57233899600033,169.57233899600033,169.58708719099923,169.87359525899956,right,3.5,1,1,0.4462476240005344,025233,001,2023-09-07_16h47.12.634,AdaptiveStaircase_Nikita,2023.1.3,None,
154,0.5,3.0,170.0323866939998,170.52429031300017,170.52429031300017,170.53669300399997,170.82006376000027,right,3.0,1,1,0.4108874069988815,025233,001,2023-09-07_16h47.12.634,AdaptiveStaircase_Nikita,2023.1.3,None,
155,0.5,3.0,170.96993532099987,171.44894432600086,171.44894432600086,171.47385927300093,171.75359444999958,right,3.0,1,1,0.6745878819983773,025233,001,2023-09-07_16h47.12.634,AdaptiveStaircase_Nikita,2023.1.3,None,
156,0.5,3.0,172.14009303700004,172.63120670200078,172.63120670200078,172.64231578,172.93688922299953,right,3.0,1,1,0.5912512100003369,025233,001,2023-09-07_16h47.12.634,AdaptiveStaircase_Nikita,2023.1.3,None,
157,0.5,2.5,173.2541220839994,173.74398318400017,173.74398318400017,173.7594107879995,174.03950085299948,left,-2.5,1,1,0.5903993469983106,025233,001,2023-09-07_16h47.12.634,AdaptiveStaircase_Nikita,2023.1.3,None,
158,0.5,2.5,174.34908080999958,174.8303532890004,174.8303532890004,174.8529275689998,175.12768245200095,left,-2.5,0,0,1.4911085019994061,025233,001,2023-09-07_16h47.12.634,AdaptiveStaircase_Nikita,2023.1.3,None,
159,0.5,3.0,176.35288261499954,176.83065108099981,176.83065108099981,176.85834680799962,177.13151366700004,left,-3.0,0,0,0.4940257010002824,025233,001,2023-09-07_16h47.12.634,AdaptiveStaircase_Nikita,2023.1.3,None,
160,0.5,3.5,177.3401687559999,177.83118420000028,177.83118420000028,177.84293679800066,178.1367107320002,left,-3.5,0,0,0.45928913099851343,025233,001,2023-09-07_16h47.12.634,AdaptiveStaircase_Nikita,2023.1.3,None,
161,0.5,4.0,178.31380361499942,178.80293668100057,178.80293668100057,178.812130196,179.0956739609992,left,-4.0,0,0,0.43469371699939074,025233,001,2023-09-07_16h47.12.634,AdaptiveStaircase_Nikita,2023.1.3,None,
162,0.5,4.5,179.25487653799973,179.74744323900086,179.74744323900086,179.75832575000095,180.04575471700082,right,4.5,1,1,0.45789067299847375,025233,001,2023-09-07_16h47.12.634,AdaptiveStaircase_Nikita,2023.1.3,None,
163,0.5,4.5,180.2259787210005,180.71330822500022,180.71330822500022,180.72440906799966,181.01140926399967,right,4.5,1,1,0.3766518169995834,025233,001,2023-09-07_16h47.12.634,AdaptiveStaircase_Nikita,2023.1.3,None,
164,0.5,4.5,181.11141042800045,181.5956494330003,181.5956494330003,181.60938672699922,181.90343552600098,right,4.5,1,1,0.4244526129987207,025233,001,2023-09-07_16h47.12.634,AdaptiveStaircase_Nikita,2023.1.3,None,
165,0.5,4.0,182.03660804100036,182.5276457050004,182.5276457050004,182.5276457050004,182.8267345509994,right,4.0,1,1,0.4597242309991998,025233,001,2023-09-07_16h47.12.634,AdaptiveStaircase_Nikita,2023.1.3,None,
166,0.5,4.0,183.01035921999937,183.50340116000007,183.50340116000007,183.51599279900074,183.80340362199968,right,4.0,1,1,0.4095747339997615,025233,001,2023-09-07_16h47.12.634,AdaptiveStaircase_Nikita,2023.1.3,None,
167,0.5,4.0,183.92676789399957,184.41931798000041,184.41931798000041,184.42971412500083,184.71988324099948,left,-4.0,0,0,0.3242959899998823,025233,001,2023-09-07_16h47.12.634,AdaptiveStaircase_Nikita,2023.1.3,None,
168,0.5,4.5,184.76466380900092,185.24737107700093,185.24737107700093,185.25880779399995,185.54472425200038,right,4.5,1,1,0.505260914000246,025233,001,2023-09-07_16h47.12.634,AdaptiveStaircase_Nikita,2023.1.3,None,
169,0.5,4.5,185.76889520999976,186.25997516999996,186.25997516999996,186.27368981499967,186.55751132600017,right,4.5,1,1,0.4171318719982082,025233,001,2023-09-07_16h47.12.634,AdaptiveStaircase_Nikita,2023.1.3,None,
170,0.5,4.5,186.69183355300083,187.18344352799977,187.18344352799977,187.19487248900077,187.49075970000013,left,-4.5,0,0,0.38645733799967275,025233,001,2023-09-07_16h47.12.634,AdaptiveStaircase_Nikita,2023.1.3,None,
171,0.5,5.0,187.58315983800094,188.0738456679992,188.0738456679992,188.08711606299948,188.37427683699934,right,5.0,1,1,0.47785224599829235,025233,001,2023-09-07_16h47.12.634,AdaptiveStaircase_Nikita,2023.1.3,None,
172,0.5,5.0,188.56985719899967,189.04890008599978,189.04890008599978,189.07325472500088,189.35348334899936,right,5.0,1,1,0.48926758599918685,025233,001,2023-09-07_16h47.12.634,AdaptiveStaircase_Nikita,2023.1.3,None,
173,0.5,5.0,189.55426612799965,190.046471347001,190.046471347001,190.046471347001,190.3447630440005,left,-5.0,0,0,0.4304165309986274,025233,001,2023-09-07_16h47.12.634,AdaptiveStaircase_Nikita,2023.1.3,None,
174,0.5,5.5,190.49138706200029,190.9804510009999,190.9804510009999,190.99124722300076,191.27841574000013,left,-5.5,1,1,0.5028332139991107,025233,001,2023-09-07_16h47.12.634,AdaptiveStaircase_Nikita,2023.1.3,None,
175,0.5,5.5,191.50225605000014,191.99118881399954,191.99118881399954,192.00444953199985,192.2896473590008,right,5.5,1,1,0.5354697820002912,025233,001,2023-09-07_16h47.12.634,AdaptiveStaircase_Nikita,2023.1.3,None,
176,0.5,5.5,192.5495421809992,193.04092519500045,193.04092519500045,193.0533046590008,193.34060411999963,right,5.5,1,1,0.4109469699978945,025233,001,2023-09-07_16h47.12.634,AdaptiveStaircase_Nikita,2023.1.3,None,
177,0.5,5.0,193.46538033400066,193.95436055000027,193.95436055000027,193.9646347529997,194.25301585499983,left,-5.0,1,1,0.4340990119999333,025233,001,2023-09-07_16h47.12.634,AdaptiveStaircase_Nikita,2023.1.3,None,
178,0.5,5.0,194.40859730800003,194.8922678609997,194.8922678609997,194.9186610279994,195.19633835400055,left,-5.0,1,1,0.4026799919993209,025233,001,2023-09-07_16h47.12.634,AdaptiveStaircase_Nikita,2023.1.3,None,
179,0.5,5.0,195.30994060400008,195.8030439640006,195.8030439640006,195.8131114379994,196.0952213950004,left,-5.0,1,1,0.48112241700073355,025233,001,2023-09-07_16h47.12.634,AdaptiveStaircase_Nikita,2023.1.3,None,
180,0.5,4.5,196.29934496900023,196.78590629099926,196.78590629099926,196.7965222769999,197.08646054100063,left,-4.5,1,1,0.33744672799912223,025233,001,2023-09-07_16h47.12.634,AdaptiveStaircase_Nikita,2023.1.3,None,
181,0.5,4.5,197.1430185829995,197.62981150199994,197.62981150199994,197.64103035900007,197.92384318100085,right,4.5,1,1,0.5628304679994471,025233,001,2023-09-07_16h47.12.634,AdaptiveStaircase_Nikita,2023.1.3,None,
182,0.5,4.5,198.21040425499996,198.69966309700067,198.69966309700067,198.71083287200054,199.00438600300004,left,-4.5,1,1,0.3350998569985677,025233,001,2023-09-07_16h47.12.634,AdaptiveStaircase_Nikita,2023.1.3,None,
183,0.5,4.0,199.05769443400095,199.55577499900028,199.55577499900028,199.57078587099932,199.86825383500036,left,-4.0,1,1,0.4326624709992757,025233,001,2023-09-07_16h47.12.634,AdaptiveStaircase_Nikita,2023.1.3,None,
184,0.5,4.0,200.01956327100015,200.49422360099925,200.49422360099925,200.52004103000036,200.79564155300068,right,4.0,0,0,0.35342911000043387,025233,001,2023-09-07_16h47.12.634,AdaptiveStaircase_Nikita,2023.1.3,None,
185,0.5,4.5,200.86442775499927,201.3535706549992,201.3535706549992,201.3627404229992,201.6452162530004,right,4.5,1,1,0.5970526239998435,025233,001,2023-09-07_16h47.12.634,AdaptiveStaircase_Nikita,2023.1.3,None,
186,0.5,4.5,201.97066544799964,202.45826465500068,202.45826465500068,202.4690955469996,202.76041894400078,left,-4.5,0,0,0.4296618419994047,025233,001,2023-09-07_16h47.12.634,AdaptiveStaircase_Nikita,2023.1.3,None,
187,0.5,5.0,202.90755124899988,203.39713090999976,203.39713090999976,203.40786816500076,203.69528054799957,left,-5.0,1,1,1.938050974998987,025233,001,2023-09-07_16h47.12.634,AdaptiveStaircase_Nikita,2023.1.3,None,
188,0.5,5.0,205.36962786100048,205.85357732299963,205.85357732299963,205.86418434799998,206.15315232800094,right,5.0,1,1,0.38575711399789725,025233,001,2023-09-07_16h47.12.634,AdaptiveStaircase_Nikita,2023.1.3,None,
189,0.5,5.0,206.25208702999953,206.74619659100063,206.74619659100063,206.74619659100063,207.05304528300076,left,-5.0,1,1,0.6054209099984291,025233,001,2023-09-07_16h47.12.634,AdaptiveStaircase_Nikita,2023.1.3,None,
190,0.5,4.5,207.36512081900037,207.85613595500035,207.85613595500035,207.869512751,208.1576177700008,left,-4.5,0,0,0.4023897269998997,025233,001,2023-09-07_16h47.12.634,AdaptiveStaircase_Nikita,2023.1.3,None,
191,0.5,5.0,208.28153040799953,208.76985364400025,208.76985364400025,208.7791023640002,209.06153945200094,right,5.0,0,0,1.718481518999397,025233,001,2023-09-07_16h47.12.634,AdaptiveStaircase_Nikita,2023.1.3,None,
192,0.5,5.5,210.5115064799993,211.00793561499995,211.00793561499995,211.02273122100087,211.30578094299926,left,-5.5,1,1,0.39720802800002275,025233,001,2023-09-07_16h47.12.634,AdaptiveStaircase_Nikita,2023.1.3,None,
193,0.5,5.5,211.41877698899953,211.90804587000093,211.90804587000093,211.92099294299987,212.20649438300097,left,-5.5,1,1,0.36098705399854225,025233,001,2023-09-07_16h47.12.634,AdaptiveStaircase_Nikita,2023.1.3,None,
194,0.5,5.5,212.28225915000075,212.77415245200064,212.77415245200064,212.78603489700072,213.0740959220002,right,5.5,0,0,0.44780896799966285,025233,001,2023-09-07_16h47.12.634,AdaptiveStaircase_Nikita,2023.1.3,None,
195,0.5,6.0,213.24324315299964,213.7400866379994,213.7400866379994,213.75329568300003,214.04058702899965,left,-6.0,1,1,0.7610328569990088,025233,001,2023-09-07_16h47.12.634,AdaptiveStaircase_Nikita,2023.1.3,None,
196,0.5,6.0,214.5249822149999,215.0136641019999,215.0136641019999,215.02449536600034,215.31350662499972,right,6.0,1,1,0.4635444869982166,025233,001,2023-09-07_16h47.12.634,AdaptiveStaircase_Nikita,2023.1.3,None,
197,0.5,6.0,215.49298182799976,215.98077043800004,215.98077043800004,215.99248019100014,216.2864510239997,right,6.0,1,1,0.5086512689995288,025233,001,2023-09-07_16h47.12.634,AdaptiveStaircase_Nikita,2023.1.3,None,
198,0.5,5.5,216.51919569600068,216.99139487499997,216.99139487499997,217.02089383400016,217.29041204699934,right,5.5,1,1,0.4257050500000332,025233,001,2023-09-07_16h47.12.634,AdaptiveStaircase_Nikita,2023.1.3,None,
199,0.5,5.5,217.4355228709992,217.92579806200047,217.92579806200047,217.95145732200035,218.22382107200065,right,5.5,1,1,0.3833060349988955,025233,001,2023-09-07_16h47.12.634,AdaptiveStaircase_Nikita,2023.1.3,None,
